Ritz wavelength (nm),Ca I (1.7e-02),Ca II (8.9e-01),Ca III (9.1e-02)
180.7337,,1.646e+3,
180.7882,,,4.407e-8
181.2157,,,3.506e-8
181.3588,,,6.846e-9
181.4495,,2.912e+3,
181.4647,,2.797e+2,
183.0059,,,1.539e-8
183.8008,,6.859e+4,
184.0061,,1.023e+5,
184.3088,,3.538e+2,
184.5779,,,3.818e-11
185.0691,,7.030e+2,
187.0267,,,5.062e-8
187.237,,,5.928e-8
190.7383,,,2.730e-11
191.0101,,,1.502e-8
193.56812,,,3.841e-11
193.969,,,9.533e-9
194.3017,,,8.365e-10
194.826,,,2.253e-8
195.30643,,,1.323e-10
195.3549,,,1.281e-8
196.46184,,,4.124e-10
196.79283,,,6.996e-10
197.2821,,,2.093e-8
197.70172,,,7.326e-11
197.85521,,,7.040e-11
198.1195,,,2.703e-10
198.95093,,,2.352e-11
199.966,,,7.944e-9
200.08954,,,1.446e-10
200.2986,,,4.096e-11
201.86956,,,1.372e-10
202.60553,,,1.297e-10
202.65914,,,1.411e-11
203.3358,,,2.637e-10
204.154,,,1.377e-8
204.57991,,,1.700e-10
204.68184,,,8.063e-11
204.71906,,,3.488e-11
206.2156,,,3.208e-11
207.48422,,,6.035e-11
207.891,,,3.955e-10
209.8495,,,3.038e-10
210.3235,,8.618e+3,
210.7129,,,2.502e-11
211.2757,,1.528e+4,
211.3146,,1.682e+3,
211.4407,,,1.667e-9
212.3019,,,2.672e-9
212.9188,,,7.092e-10
213.39506,,,8.318e-10
214.0354,,,1.089e-9
214.3745,,,3.244e-11
215.0795,9.304e+1,,
215.243,,,1.257e-9
216.3413,,,9.653e-11
217.13137,,,4.727e-11
217.15628,,,5.544e-10
217.8586,,,2.822e-10
218.2017,,,7.475e-11
219.12063,,,3.776e-11
219.7787,,2.099e+3,
220.0727,2.660e+2,,
220.2408,,,6.486e-11
220.43139,,,8.348e-11
220.8611,,4.198e+3,
221.9851,,,3.414e-11
227.5466,6.296e+2,,
227.6513,,,3.739e-10
228.1471,,,2.069e-13
229.8335,,,2.803e-14
231.08,,,9.995e-11
231.2074,,,1.026e-8
232.1239,,,6.887e-14
232.3329,,,5.732e-14
233.5126,,,2.860e-14
233.8654,,,3.819e-14
234.1544,,,2.662e-14
234.3796,,,2.183e-14
235.1363,,,4.234e-11
235.5344,,,4.034e-14
235.6632,,,5.120e-14
239.3172,,,2.185e-10
239.8559,4.619e+2,,
243.1091,,,5.442e-11
244.255,,,5.886e-11
247.0287,,,3.528e-11
247.2533,,,4.775e-11
249.352,,,4.865e-11
249.77328,,,1.152e-8
254.1499,,,2.243e-8
262.0813,,,1.835e-8
263.4136,,,2.243e-8
265.5383,,,2.502e-11
268.7764,,,5.612e-8
270.4858,,,1.753e-8
275.1798,,,1.113e-13
276.4095,,,1.467e-13
277.1275,,,7.902e-9
279.1587,,,1.383e-8
279.6346,,,3.580e-13
279.7203,,,1.999e-13
279.9386,,,2.958e-13
281.3879,,,1.894e-8
281.5391,,,1.493e-13
281.854,,,1.559e-13
282.0573,,,1.969e-13
282.4116,,,1.360e-13
282.8001,,,1.120e-13
284.3169,,,2.048e-13
284.5058,,,2.573e-13
286.6539,,,1.703e-8
286.9943,,,4.502e-8
288.1782,,,4.550e-8
289.9785,,,1.938e-7
292.4331,,,4.213e-8
298.8627,,,7.944e-8
298.9276,,,2.473e-8
299.4957,4.337e+2,,
299.7316,4.732e+2,,
299.9645,3.297e+2,,
300.0863,6.235e+2,,
300.6861,1.473e+3,,
300.9206,5.082e+2,,
302.8583,,,1.417e-8
311.9667,,,3.399e-8
313.6019,5.837e+1,,
314.0786,1.162e+2,,
314.1159,4.271e+1,,
315.0749,2.854e+2,,
315.1269,4.269e+1,,
315.8869,,2.334e+5,
317.9331,,4.057e+5,
318.0517,4.279e+1,,
318.1275,,4.368e+4,
320.9957,1.138e+2,,
321.5169,2.858e+2,,
321.5342,7.952e+1,,
322.5904,5.818e+2,,
322.6155,1.039e+2,,
327.4671,5.016e+1,,
328.6068,8.862e+1,,
334.4508,2.750e+2,,
335.0203,5.402e+2,,
335.0355,2.022e+2,,
336.1912,9.473e+2,,
336.2133,1.973e+2,,
337.2679,,,6.775e-8
347.4763,9.565e+1,,
348.7598,1.622e+2,,
353.7777,,,2.117e-8
362.4112,5.139e+2,,
363.0752,1.200e+3,,
363.0978,3.709e+2,,
364.4413,2.007e+3,,
364.4768,3.797e+2,,
367.3418,4.898e+1,,
367.5287,6.857e+1,,
367.8214,9.216e+1,,
370.6024,,5.914e+4,
373.6902,,1.142e+5,
374.8349,8.097e+1,,
375.0291,1.134e+2,,
375.3335,1.758e+2,,
387.0477,1.903e+2,,
387.254,1.998e+2,,
387.5776,3.759e+2,,
393.3663,,5.448e+6,
394.89,1.073e+2,,
395.7054,3.147e+2,,
396.8469,,2.667e+6,
397.3708,5.620e+2,,
403.8502,,,1.513e-12
409.2632,3.460e+2,,
409.4925,5.284e+2,,
409.4962,6.605e+1,,
409.7098,,2.289e+2,
409.8528,7.360e+2,,
409.8575,6.605e+1,,
410.8526,3.323e+3,,
410.9815,,4.161e+2,
413.6247,,,1.366e-12
413.7043,,,1.741e-13
415.3566,,,7.676e-12
416.4302,,,1.775e-12
417.565,,,5.522e-12
418.42,,,1.378e-11
420.4615,,,3.133e-13
420.7216,,,2.549e-11
421.1614,,,2.649e-13
421.3132,,,6.504e-12
422.6728,5.636e+4,,
422.8155,,,2.497e-12
423.3736,,,4.535e-12
424.0742,,,3.730e-12
425.6645,,,2.936e-13
427.189,,,1.880e-12
427.3875,,,3.149e-12
427.8215,,,5.239e-12
427.9722,,,1.940e-12
428.3011,2.948e+3,,
428.363,,,6.756e-14
428.4388,,,2.514e-12
428.9367,2.472e+3,,
429.0071,,,1.741e-12
429.8988,1.920e+3,,
430.101,,,1.416e-12
430.1494,,,6.602e-12
430.2528,9.239e+3,,
430.2803,,,5.377e-11
430.7744,2.749e+3,,
431.8652,3.049e+3,,
432.9182,,,2.564e-12
433.3566,,,3.238e-12
434.0345,,,2.946e-13
434.4808,,,3.874e-13
435.5079,8.323e+2,,
435.8366,,,6.815e-12
439.9584,,,3.291e-11
440.6286,,,1.813e-11
442.5437,2.243e+3,,
443.129,,,2.212e-11
443.4957,5.026e+3,,
443.5679,1.540e+3,,
445.4779,9.131e+3,,
445.5887,1.500e+3,,
448.4402,,,1.241e-12
448.4948,,,3.182e-12
449.9885,,,2.408e-11
451.6586,,,1.672e-11
452.6928,8.575e+2,,
455.3291,,,8.004e-13
457.2125,,,2.686e-11
457.8551,7.634e+2,,
458.1395,1.269e+3,,
458.1467,1.518e+2,,
458.5865,1.788e+3,,
458.5964,1.518e+2,,
463.2855,,,3.489e-13
468.5268,2.446e+2,,
470.8836,,,4.396e-12
471.6287,,,4.540e-12
473.6673,,,3.373e-13
485.1932,,,9.275e-13
485.9165,,,1.781e-12
487.8126,1.117e+3,,
488.9823,,,2.566e-13
489.9308,,,3.381e-13
491.9279,,,1.640e-12
495.057,,,8.052e-13
500.1479,,7.992e+2,
500.8939,,,1.733e-12
501.9971,,1.378e+3,
504.1618,9.128e+2,,
504.6923,,,1.031e-12
505.0089,,,4.213e-12
506.3721,,,7.222e-13
511.2982,,,5.227e-13
513.7727,,,1.304e-12
518.8844,1.581e+3,,
520.1352,,,7.844e-13
523.1814,,,2.396e-12
524.7373,,,4.842e-12
526.1704,5.548e+2,,
526.2241,7.399e+2,,
526.4237,5.606e+2,,
526.5556,1.627e+3,,
527.027,3.080e+3,,
527.1979,,,7.289e-12
529.7533,,,3.020e-13
530.1323,,,2.388e-12
530.7224,,3.424e+2,
532.1287,,,3.923e-12
532.8057,,,2.087e-12
533.3654,,,2.857e-13
535.0731,,,5.070e-13
535.4256,,,4.304e-13
548.0011,,,5.737e-13
551.298,1.001e+3,,
557.0601,,,5.350e-12
557.9076,,,1.840e-12
558.1965,5.917e+2,,
558.8749,4.833e+3,,
559.0114,5.876e+2,,
559.4462,2.690e+3,,
559.848,1.833e+3,,
560.1277,6.088e+2,,
560.2842,5.967e+2,,
566.367,,,2.706e-13
569.4683,,,4.269e-13
585.7451,3.427e+3,,
606.9998,,,1.964e-11
610.2723,9.335e+2,,
612.2217,2.791e+3,,
616.1297,2.864e+2,,
616.2173,4.638e+3,,
616.3755,2.924e+2,,
616.6439,3.832e+2,,
616.9042,8.876e+2,,
616.9563,1.649e+3,,
617.3216,,,4.623e-12
621.3997,,,1.128e-11
629.4886,,,5.368e-12
637.0113,,,5.151e-12
638.7545,,,4.061e-12
642.4526,,,8.205e-12
643.9075,9.007e+3,,
644.9808,8.563e+2,,
646.2567,6.273e+3,,
647.1662,7.875e+2,,
648.5337,,,8.671e-12
649.3781,4.241e+3,,
649.965,7.807e+2,,
653.8784,,,1.865e-12
659.9652,,,2.724e-12
671.7681,6.130e+2,,
706.473,,,1.159e-12
730.8681,,,6.272e-12
783.0699,,,5.710e-12
784.307,,,6.860e-12
789.8419,,,1.524e-11
799.353,,,1.012e-13
805.122,,,4.706e-13
810.359,,,4.124e-13
811.898,,,3.478e-13
814.103,,,2.488e-13
819.534,,,6.535e-13
820.172,,5.360e+3,
821.719,,,5.947e-12
824.88,,9.606e+3,
825.264,,,2.607e-13
825.472,,1.051e+3,
850.549,,,1.001e-13
854.209,,3.669e+5,
866.214,,2.019e+5,
920.634,,,3.257e-13
943.254,,,9.552e-13