Ritz wavelength (nm),Ce I (5.5e-03),Ce II (8.4e-01)
342.27048,,5.737e+3
342.62049,,4.237e+3
348.5053,,6.133e+3
350.79409,,2.117e+3
352.05202,,2.372e+3
353.40448,,9.957e+3
353.90789,,8.988e+3
355.2724,,3.133e+3
355.50012,,4.955e+3
356.08019,,2.301e+4
357.74556,,2.024e+4
364.69621,,4.294e+3
365.31042,,5.481e+3
365.36641,,9.647e+3
365.49341,,2.618e+3
365.58444,,1.584e+4
365.92251,,4.311e+3
365.99705,,3.758e+3
366.06381,,6.823e+3
366.7978,,1.161e+4
369.49082,,2.244e+3
370.49758,,1.833e+3
370.92873,,1.244e+4
370.9929,,1.185e+4
371.6366,,1.270e+4
371.97913,,3.590e+3
372.56728,,5.914e+3
372.80185,,8.912e+3
372.84173,,1.815e+4
374.80547,,5.470e+3
376.41152,,9.602e+3
377.16,,4.205e+3
377.6606,,2.768e+3
378.1616,,8.184e+3
378.66324,,9.187e+3
378.87463,,7.879e+3
379.23239,,5.010e+3
380.15258,,4.381e+4
380.30963,,9.630e+3
380.81134,,1.373e+4
380.92177,,8.590e+3
381.57931,,5.972e+3
381.90221,,5.260e+3
382.39003,,6.169e+3
383.455,,6.147e+3
383.61066,,3.830e+3
383.85377,,1.355e+4
384.37673,,4.412e+3
384.81002,,4.432e+3
384.85919,,1.308e+4
385.31557,,8.073e+3
385.41854,,1.183e+4
385.43195,,1.453e+4
385.52984,,8.026e+3
385.70246,,7.085e+3
385.76414,,4.480e+3
386.81335,,2.558e+3
387.83668,,9.847e+3
388.24448,,1.233e+4
388.99819,,1.773e+4
389.07445,,3.357e+3
389.09783,,3.130e+3
389.6802,,8.064e+3
389.82633,,7.493e+3
390.33328,,2.758e+3
390.43367,,4.069e+3
390.8404,,1.303e+4
390.85363,,5.468e+3
390.93105,,3.868e+3
391.21879,,4.180e+3
391.24198,,1.113e+4
391.61398,,3.406e+3
391.7639,,3.848e+3
391.98026,,9.478e+3
392.31071,,9.257e+3
393.10834,,7.534e+3
393.13663,,5.637e+3
394.03297,,1.050e+4
394.09697,,4.768e+3
394.21506,,1.603e+4
394.27455,,5.560e+4
394.38838,,1.856e+4
394.79661,,3.177e+3
395.25321,,1.509e+4
395.36522,,3.752e+3
395.62778,,1.901e+4
396.09089,,8.375e+3
396.44958,,4.309e+3
396.70423,,8.649e+3
397.16807,,6.343e+3
397.86462,,8.962e+3
398.089,,8.107e+3
398.29014,,6.107e+3
398.32883,,4.081e+3
398.46715,,1.026e+4
399.23801,,1.031e+4
399.38188,,2.105e+4
399.92368,,2.294e+4
400.15631,,3.749e+3
400.37675,,2.090e+4
400.56334,,4.521e+3
401.23859,,3.006e+4
401.48971,,1.002e+4
402.44846,,9.221e+3
402.51391,,2.955e+3
402.84036,,1.072e+4
403.13316,,1.141e+4
403.76621,,4.572e+3
404.07528,,2.830e+4
404.25806,,1.679e+4
404.63379,,1.102e+4
405.14237,,2.719e+3
405.19903,,2.301e+3
405.35031,,6.760e+3
406.29367,,3.322e+3
406.88361,,9.236e+3
407.1775,,1.246e+4
407.29185,,4.548e+3
407.34744,,2.783e+4
407.56997,,2.326e+4
407.58467,,2.181e+4
408.04383,,3.881e+3
408.32218,,2.552e+4
408.5236,,9.912e+3
408.73624,,3.064e+3
408.88519,,4.784e+3
410.17691,,1.299e+4
410.74232,,1.239e+4
411.13927,,6.010e+3
411.72879,,4.703e+3
411.81434,,1.866e+4
411.90084,,4.801e+3
411.9883,,7.663e+3
411.99529,,9.396e+2
412.08274,,8.566e+3
412.32198,,4.373e+3
412.38695,,2.877e+4
412.47871,,1.109e+4
412.73644,,2.847e+4
412.77477,,7.316e+3
412.80615,,4.319e+3
413.07051,,1.017e+4
413.54236,,5.222e+3
413.7466,,4.827e+3
413.76453,,4.223e+4
414.23967,,2.344e+4
414.4492,,8.025e+3
414.4996,,1.770e+4
414.62322,,1.220e+4
414.97813,,2.343e+3
414.99658,,1.199e+4
415.19698,,3.852e+4
415.31259,,3.506e+3
416.55989,,3.722e+4
416.97658,,3.893e+3
416.98769,,7.306e+3
418.53309,,4.827e+3
418.7322,,6.089e+3
419.30655,,1.886e+3
419.32834,,1.084e+4
419.38713,,5.376e+3
419.63325,,8.542e+3
419.87208,,8.069e+3
420.29314,,7.582e+3
420.29577,,6.255e+3
420.9406,,3.577e+3
421.4033,,5.503e+3
422.2597,,1.805e+4
422.7747,,1.146e+4
423.4211,,3.925e+3
423.6016,,3.858e+3
423.991,,1.765e+4
424.272,,5.489e+3
424.5973,,5.637e+3
424.6713,,6.101e+3
424.8671,,2.216e+4
425.3362,,5.121e+3
425.5782,,1.044e+4
427.0184,,8.832e+3
427.886,,2.906e+3
428.8663,,2.422e+3
428.9447,,3.278e+3
428.9932,,2.694e+4
429.6051,,1.799e+3
429.6681,,2.551e+4
429.6779,,1.122e+4
429.9357,,6.692e+3
430.0328,,1.140e+4
430.514,,8.356e+3
430.6726,,1.402e+4
430.9735,,6.352e+3
432.0719,,7.482e+3
433.0441,,3.098e+3
433.2641,,9.297e+2
433.2703,,3.758e+3
433.7773,,1.037e+4
434.9768,,3.267e+3
434.9789,,6.941e+3
435.2707,,9.030e+3
436.4653,,1.209e+4
437.3814,,5.618e+3
437.5919,,7.688e+3
438.2165,,2.019e+4
438.6827,,9.667e+3
438.8005,,5.094e+3
439.1659,,1.968e+4
439.8783,,2.966e+3
439.92,,7.850e+3
441.69,,3.032e+3
441.878,,2.317e+4
442.7069,,4.567e+3
442.7916,,6.844e+3
442.8438,,4.644e+3
444.933,,1.796e+4
445.0732,,1.031e+4
446.0207,,3.546e+4
446.1133,,9.972e+3
447.1241,,2.511e+4
447.2715,,4.890e+3
447.9361,,6.192e+3
447.9419,,2.336e+3
448.3893,,1.600e+4
448.6909,,1.487e+4
450.6413,2.468e+1,
452.3075,,1.516e+4
452.7348,,1.420e+4
452.7423,,1.317e+3
452.8473,,2.485e+4
453.9745,,1.805e+4
454.4953,,3.274e+3
455.1291,,5.497e+3
456.028,,1.866e+4
456.0958,,8.535e+3
456.2359,,3.054e+4
457.2278,,2.532e+4
458.2499,,6.761e+3
459.1116,,3.900e+3
459.3926,,1.802e+4
460.64,,1.072e+4
462.8161,,2.506e+4
463.2321,6.328e+1,
465.0506,1.990e+1,
465.4278,,2.073e+3
468.0119,,3.563e+3
468.4598,,5.106e+3
471.4017,,4.816e+3
471.4831,,2.703e+3
473.7271,,8.200e+3
475.7841,,2.329e+3
476.8791,,2.107e+3
477.3941,,5.106e+3
482.2548,6.778e+1,
488.2463,,1.059e+4
500.9103,1.489e+2,
501.1759,,3.651e+3
502.2867,,4.738e+3
503.78,,3.138e+3
504.0846,1.283e+2,
504.4023,,6.934e+3
507.5355,,5.156e+3
511.2704,1.157e+2,
514.7565,,4.505e+3
518.7458,,1.440e+4
519.1633,,3.457e+3
521.192,1.745e+2,
522.3461,1.829e+2,
522.9742,9.959e+1,
523.2918,,4.317e+3
524.5913,1.706e+2,
526.5677,,5.498e+3
527.4229,,1.553e+4
529.6565,1.042e+2,
532.8085,1.132e+2,
533.0556,,5.483e+3
535.3524,,1.698e+4
539.3392,,9.542e+3
539.7636,1.203e+2,
540.9229,,5.677e+3
542.0382,9.545e+1,
544.9239,1.556e+2,
546.8371,,6.883e+3
551.2064,,5.008e+3
555.6258,1.056e+2,
556.4962,1.632e+2,
556.5968,1.239e+2,
559.5876,1.048e+2,
560.1277,3.146e+2,
565.514,1.343e+2,
566.9958,2.061e+2,
567.7752,1.219e+2,
569.2945,8.840e+1,
569.6993,3.107e+2,
571.9036,2.910e+2,
577.3123,1.543e+2,
578.8145,1.818e+2,
581.2915,1.859e+2,
594.0856,1.697e+2,
600.586,3.559e+1,
600.6819,3.623e+1,
601.342,4.261e+1,
602.4195,9.904e+1,
603.4205,,1.803e+3
603.5476,,1.217e+3
604.3373,,3.324e+3
604.7397,3.129e+1,
605.7997,2.494e+1,
607.2004,2.007e+1,
607.6612,1.769e+1,
609.3193,1.912e+1,
609.3244,9.671e+0,
609.9799,7.247e+0,
610.8747,,1.188e+3
611.891,1.822e+1,
613.5457,1.249e+1,
614.2928,1.768e+1,
614.643,3.058e+1,
614.7844,2.103e+1,
619.5539,1.771e+1,
620.8985,6.942e+1,
623.2448,,1.297e+3
623.746,1.626e+1,
623.8713,1.290e+1,
625.3653,8.723e+0,
627.2026,,2.834e+3
630.0204,1.996e+1,
637.1109,,1.685e+3
643.6399,1.499e+1,
645.8033,2.773e+1,
646.6889,,1.298e+3
650.7163,,6.001e+2
655.1702,1.559e+1,
655.5649,3.198e+1,
662.2996,5.443e+0,
666.141,1.371e+1,
666.5589,7.606e+0,
670.4272,2.424e+1,
670.6051,,6.920e+2
680.8824,4.385e+0,
682.9727,,7.704e+2
692.4814,3.682e+1,
698.3822,,4.220e+2
706.1753,,3.497e+3
706.45,1.121e+1,
708.6353,,5.211e+3
723.8371,,8.687e+2
753.3723,6.806e+0,
785.1195,,1.025e+3
791.352,8.866e+0,